10/22/2024 08:48:28Time	T_hot_in(C)	T_cold_in(C)	T_cold_out(C)	T_hot_out(C)	mdot_cold(kg/s)	ASFASIFUAS(kg/s)	Diferencial_cold(bar)	Diferencial_hot(bar)	mdot_hot(kg/s)	ABS_cold(bar)	ABS_hot(bar)	q_cold(kW)	q_hot(kW)	ASFASYFY	Tau_cold_haste	Re_hot	Re_cold	U_global	PSIG_cold(bar)	R_fouling	PSIG_hot(bar)	PSID_hot(bar)	m_dot_hot	PSID_cold(bar)	m_dot_cold
1.75132  	0.00000  	0.00000  	0.00000  	0.00000  	-1.18512  	-0.20833  	-0.86278  	-2.50000  	-3.02442  	-1.25000  	-0.08628  	-0.00000  	-0.00000  	-737.84722  	-254.63905  	-9234.48090  	-3618.55272  	0.00000  	0.00000  	0.00000  	0.00000  	0.00000  	0.00000  	0.00000  
2.75463  	33.02513  	5.14446  	5.46480  	19.98735  	-1.18512  	0.01488  	0.23993  	0.22734  	-3.02442  	0.07277  	-0.08575  	-165.32770  	-1.58808  	67.09770  	70.81334  	-18650.90411  	-4218.26665  	0.00436  	0.00002  	0.00423  	0.00429  	0.00508  	0.00000  	0.00000  
3.75595  	33.02214  	5.14497  	5.46658  	19.98800  	-1.18512  	0.01554  	0.24026  	0.22419  	-3.02442  	0.07174  	-0.08568  	-165.28140  	-1.59437  	66.16842  	70.90867  	-18650.40770  	-4218.40371  	0.00436  	0.00003  	0.00423  	0.00430  	0.00508  	0.00000  	0.00000  
4.75930  	33.01924  	5.14651  	5.46774  	19.98768  	-1.18512  	0.01465  	0.23968  	0.22379  	-3.02442  	0.07199  	-0.08567  	-165.24868  	-1.59248  	66.04899  	70.73898  	-18649.72028  	-4218.56582  	0.00436  	0.00003  	0.00423  	0.00428  	0.00508  	0.00000  	0.00000  
5.76261  	33.01613  	5.14687  	5.46761  	19.98793  	-1.18512  	0.01391  	0.23970  	0.22215  	-3.02442  	0.07224  	-0.08571  	-165.20605  	-1.59007  	65.56482  	70.74391  	-18649.11319  	-4218.58042  	0.00436  	0.00003  	0.00423  	0.00427  	0.00508  	0.00000  	0.00000  
6.76391  	33.01332  	5.14737  	5.46950  	19.98740  	-1.18512  	0.01416  	0.23938  	0.22141  	-3.02442  	0.07234  	-0.08560  	-165.17696  	-1.59693  	65.34563  	70.64964  	-18648.40200  	-4218.72352  	0.00435  	0.00003  	0.00423  	0.00427  	0.00508  	0.00000  	0.00000  
7.76722  	33.01128  	5.14778  	5.46902  	19.98696  	-1.18512  	0.01471  	0.23960  	0.22002  	-3.02442  	0.07272  	-0.08574  	-165.15674  	-1.59251  	64.93751  	70.71409  	-18647.87324  	-4218.71917  	0.00435  	0.00002  	0.00423  	0.00428  	0.00508  	0.00000  	0.00000  
8.77057  	33.00828  	5.14993  	5.46960  	19.98601  	-1.18512  	0.01516  	0.23936  	0.22395  	-3.02442  	0.07330  	-0.08563  	-165.13059  	-1.58475  	66.09659  	70.64568  	-18647.03471  	-4218.88313  	0.00436  	0.00003  	0.00423  	0.00429  	0.00508  	0.00000  	0.00000  
9.77086  	33.00554  	5.14868  	5.47008  	19.98427  	-1.18512  	0.01545  	0.23910  	0.22019  	-3.02442  	0.07228  	-0.08574  	-165.11792  	-1.59332  	64.98539  	70.56737  	-18646.08221  	-4218.83686  	0.00435  	0.00003  	0.00423  	0.00430  	0.00508  	0.00000  	0.00000  
10.77221  	33.00230  	5.14838  	5.46958  	19.98370  	-1.18512  	0.01441  	0.23821  	0.22220  	-3.02442  	0.07262  	-0.08571  	-165.08406  	-1.59232  	65.57912  	70.30411  	-18645.27094  	-4218.78943  	0.00436  	0.00003  	0.00423  	0.00428  	0.00507  	0.00000  	0.00000  
11.77553  	32.99917  	5.14977  	5.46932  	19.98226  	-1.18512  	0.01427  	0.23798  	0.22194  	-3.02442  	0.07234  	-0.08571  	-165.06266  	-1.58418  	65.50282  	70.23762  	-18644.29780  	-4218.85696  	0.00436  	0.00003  	0.00423  	0.00427  	0.00507  	0.00000  	0.00000  
12.77882  	32.99649  	5.14929  	5.46858  	19.98040  	-1.18512  	0.01406  	0.23736  	0.22056  	-3.02442  	0.07379  	-0.08570  	-165.05231  	-1.58288  	65.09601  	70.05378  	-18643.33352  	-4218.78341  	0.00435  	0.00003  	0.00424  	0.00427  	0.00507  	0.00000  	0.00000  
13.78014  	32.99467  	5.14879  	5.46847  	19.97895  	-1.18512  	0.01453  	0.23726  	0.22143  	-3.02442  	0.07264  	-0.08575  	-165.04768  	-1.58479  	65.35158  	70.02478  	-18642.63756  	-4218.74710  	0.00435  	0.00002  	0.00423  	0.00428  	0.00507  	0.00000  	0.00000  
14.78345  	32.99176  	5.14881  	5.46784  	19.97605  	-1.18512  	0.01354  	0.23784  	0.21938  	-3.02442  	0.07190  	-0.08571  	-165.04754  	-1.58155  	64.74857  	70.19556  	-18641.40184  	-4218.71047  	0.00435  	0.00003  	0.00423  	0.00426  	0.00507  	0.00000  	0.00000  
15.78677  	32.98975  	5.14897  	5.46671  	19.97452  	-1.18512  	0.01394  	0.23718  	0.22095  	-3.02442  	0.07281  	-0.08572  	-165.04147  	-1.57520  	65.20996  	70.00216  	-18640.65042  	-4218.65234  	0.00435  	0.00003  	0.00423  	0.00427  	0.00507  	0.00000  	0.00000  
16.78809  	32.98704  	5.14740  	5.46520  	19.97182  	-1.18512  	0.01453  	0.23489  	0.21723  	-3.02442  	0.07221  	-0.08567  	-165.04145  	-1.57548  	64.11444  	69.32384  	-18639.49846  	-4218.46689  	0.00435  	0.00003  	0.00423  	0.00428  	0.00506  	0.00000  	0.00000  
17.79141  	32.98518  	5.14729  	5.46366  	19.96886  	-1.18512  	0.01411  	0.23430  	0.21748  	-3.02442  	0.07232  	-0.08569  	-165.05538  	-1.56845  	64.18798  	69.15122  	-18638.47303  	-4218.36796  	0.00435  	0.00003  	0.00423  	0.00427  	0.00505  	0.00000  	0.00000  
18.79376  	32.98234  	5.14707  	5.46222  	19.96634  	-1.18512  	0.01343  	0.23498  	0.21561  	-3.02442  	0.07275  	-0.08567  	-165.05140  	-1.56233  	63.63552  	69.35097  	-18637.33321  	-4218.26846  	0.00434  	0.00003  	0.00423  	0.00426  	0.00506  	0.00000  	0.00000  
19.79505  	32.98046  	5.14685  	5.46102  	19.96178  	-1.18512  	0.01399  	0.23502  	0.21653  	-3.02442  	0.07306  	-0.08573  	-165.08548  	-1.55747  	63.90725  	69.36357  	-18635.96322  	-4218.18328  	0.00435  	0.00003  	0.00423  	0.00427  	0.00506  	0.00000  	0.00000  
20.79836  	32.97646  	5.14515  	5.45979  	19.95739  	-1.18512  	0.01388  	0.23702  	0.22131  	-3.02442  	0.07321  	-0.08568  	-165.09057  	-1.55983  	65.31628  	69.95363  	-18634.17998  	-4218.00635  	0.00435  	0.00003  	0.00423  	0.00427  	0.00507  	0.00000  	0.00000  
21.80168  	32.97446  	5.14493  	5.45822  	19.95296  	-1.18512  	0.01297  	0.23867  	0.22155  	-3.02442  	0.07238  	-0.08574  	-165.12142  	-1.55315  	65.38786  	70.44042  	-18632.80964  	-4217.89895  	0.00435  	0.00002  	0.00423  	0.00425  	0.00507  	0.00000  	0.00000  
22.80300  	32.97213  	5.14382  	5.45569  	19.95003  	-1.18512  	0.01408  	0.23916  	0.22053  	-3.02442  	0.07100  	-0.08571  	-165.12910  	-1.54611  	65.08660  	70.58663  	-18631.69174  	-4217.68039  	0.00435  	0.00003  	0.00423  	0.00427  	0.00508  	0.00000  	0.00000  
23.80632  	32.96993  	5.14310  	5.45424  	19.94721  	-1.18512  	0.01429  	0.23957  	0.22120  	-3.02442  	0.07231  	-0.08565  	-165.13706  	-1.54247  	65.28549  	70.70759  	-18630.62667  	-4217.55048  	0.00435  	0.00003  	0.00423  	0.00427  	0.00508  	0.00000  	0.00000  
24.80966  	32.96752  	5.14211  	5.45413  	19.94534  	-1.18512  	0.01407  	0.24054  	0.22440  	-3.02442  	0.07292  	-0.08573  	-165.13034  	-1.54682  	66.22933  	70.99362  	-18629.71588  	-4217.48460  	0.00436  	0.00003  	0.00423  	0.00427  	0.00508  	0.00000  	0.00000  
25.81095  	32.96600  	5.14319  	5.45319  	19.94313  	-1.18512  	0.01442  	0.24029  	0.22531  	-3.02442  	0.07275  	-0.08578  	-165.13901  	-1.53681  	66.49647  	70.91847  	-18628.92041  	-4217.49298  	0.00436  	0.00002  	0.00423  	0.00428  	0.00508  	0.00000  	0.00000  
26.81427  	32.96452  	5.14334  	5.45451  	19.94191  	-1.18512  	0.01496  	0.24079  	0.22542  	-3.02442  	0.07059  	-0.08566  	-165.13566  	-1.54260  	66.52940  	71.06754  	-18628.34691  	-4217.58126  	0.00436  	0.00003  	0.00423  	0.00429  	0.00508  	0.00000  	0.00000  
27.81759  	32.96218  	5.14300  	5.45539  	19.94370  	-1.18512  	0.01410  	0.24142  	0.22668  	-3.02442  	0.07233  	-0.08570  	-165.08324  	-1.54864  	66.90133  	71.25356  	-18628.23144  	-4217.61346  	0.00436  	0.00003  	0.00423  	0.00427  	0.00509  	0.00000  	0.00000  
28.81891  	32.96047  	5.14344  	5.45808  	19.94377  	-1.18512  	0.01488  	0.24138  	0.22263  	-3.02442  	0.07191  	-0.08568  	-165.06068  	-1.55979  	65.70714  	71.24117  	-18627.88243  	-4217.80139  	0.00436  	0.00003  	0.00423  	0.00429  	0.00509  	0.00000  	0.00000  
29.82222  	32.95875  	5.14314  	5.45839  	19.94487  	-1.18512  	0.01431  	0.24159  	0.22884  	-3.02442  	0.07266  	-0.08571  	-165.02485  	-1.56281  	67.53966  	71.30121  	-18627.75224  	-4217.80188  	0.00437  	0.00003  	0.00423  	0.00427  	0.00509  	0.00000  	0.00000  
30.82457  	32.95726  	5.14256  	5.45816  	19.94621  	-1.18512  	0.01482  	0.24325  	0.22544  	-3.02442  	0.07316  	-0.08574  	-164.98903  	-1.56460  	66.53678  	71.79334  	-18627.71725  	-4217.75340  	0.00436  	0.00003  	0.00423  	0.00428  	0.00510  	0.00000  	0.00000  
31.82586  	32.95467  	5.14286  	5.46001  	19.94697  	-1.18512  	0.01389  	0.24203  	0.22235  	-3.02442  	0.07364  	-0.08573  	-164.94642  	-1.57227  	65.62453  	71.43270  	-18627.32784  	-4217.88291  	0.00436  	0.00003  	0.00424  	0.00427  	0.00509  	0.00000  	0.00000  
32.82719  	32.95337  	5.14247  	5.45915  	19.94879  	-1.18512  	0.01385  	0.24145  	0.22793  	-3.02442  	0.07235  	-0.08570  	-164.90684  	-1.56992  	67.27088  	71.26007  	-18627.44038  	-4217.80785  	0.00436  	0.00003  	0.00423  	0.00427  	0.00509  	0.00000  	0.00000  
33.83050  	32.95189  	5.14234  	5.46001  	19.95160  	-1.18512  	0.01399  	0.24228  	0.22372  	-3.02442  	0.07218  	-0.08567  	-164.85255  	-1.57485  	66.02752  	71.50770  	-18627.72308  	-4217.85082  	0.00436  	0.00003  	0.00423  	0.00427  	0.00509  	0.00000  	0.00000  
34.83382  	32.95168  	5.14372  	5.45965  	19.95400  	-1.18512  	0.01414  	0.24048  	0.22423  	-3.02442  	0.07370  	-0.08571  	-164.81941  	-1.56624  	66.17849  	70.97544  	-18628.18744  	-4217.91275  	0.00436  	0.00003  	0.00424  	0.00427  	0.00508  	0.00000  	0.00000  
35.83517  	32.94966  	5.14319  	5.46058  	19.95496  	-1.18512  	0.01460  	0.24059  	0.22284  	-3.02442  	0.07279  	-0.08563  	-164.78162  	-1.57346  	65.76892  	71.00642  	-18627.96279  	-4217.93703  	0.00436  	0.00003  	0.00423  	0.00428  	0.00508  	0.00000  	0.00000  
36.83845  	32.94854  	5.14345  	5.46063  	19.95669  	-1.18512  	0.01431  	0.24041  	0.22941  	-3.02442  	0.07322  	-0.08567  	-164.74542  	-1.57243  	67.70856  	70.95480  	-18628.09292  	-4217.95493  	0.00437  	0.00003  	0.00423  	0.00427  	0.00508  	0.00000  	0.00000  
37.84177  	32.94721  	5.14355  	5.46058  	19.95853  	-1.18512  	0.01475  	0.24085  	0.21958  	-3.02442  	0.07199  	-0.08574  	-164.70517  	-1.57169  	64.80640  	71.08345  	-18628.20177  	-4217.95787  	0.00435  	0.00003  	0.00423  	0.00428  	0.00508  	0.00000  	0.00000  
38.84309  	32.94517  	5.14389  	5.46049  	19.95973  	-1.18512  	0.01396  	0.24002  	0.22693  	-3.02442  	0.07205  	-0.08565  	-164.66414  	-1.56952  	66.97588  	70.83919  	-18628.02353  	-4217.97295  	0.00436  	0.00003  	0.00423  	0.00427  	0.00508  	0.00000  	0.00000  
39.84641  	32.94464  	5.14234  	5.45859  	19.96003  	-1.18512  	0.01453  	0.23998  	0.22232  	-3.02442  	0.07146  	-0.08565  	-164.65367  	-1.56782  	65.61408  	70.82879  	-18627.97263  	-4217.76558  	0.00436  	0.00003  	0.00423  	0.00428  	0.00508  	0.00000  	0.00000  
40.84975  	32.94266  	5.14192  	5.45829  	19.96130  	-1.18512  	0.01421  	0.23964  	0.22074  	-3.02442  	0.07285  	-0.08571  	-164.61255  	-1.56839  	65.14984  	70.72784  	-18627.82261  	-4217.72254  	0.00435  	0.00003  	0.00423  	0.00427  	0.00508  	0.00000  	0.00000  
41.85105  	32.94244  	5.14219  	5.45881  	19.96166  	-1.18512  	0.01506  	0.24121  	0.22167  	-3.02442  	0.07217  	-0.08567  	-164.60517  	-1.56965  	65.42472  	71.19151  	-18627.85367  	-4217.77022  	0.00435  	0.00003  	0.00423  	0.00429  	0.00509  	0.00000  	0.00000  
42.85338  	32.94177  	5.14302  	5.46043  	19.96222  	-1.18512  	0.01508  	0.23912  	0.22270  	-3.02442  	0.07183  	-0.08565  	-164.58941  	-1.57354  	65.72697  	70.57217  	-18627.82948  	-4217.91712  	0.00436  	0.00003  	0.00423  	0.00429  	0.00508  	0.00000  	0.00000  
43.85668  	32.94172  	5.14356  	5.46156  	19.96253  	-1.18512  	0.01454  	0.23981  	0.22159  	-3.02442  	0.07280  	-0.08575  	-164.58489  	-1.57649  	65.39968  	70.77710  	-18627.88426  	-4218.01768  	0.00435  	0.00002  	0.00423  	0.00428  	0.00508  	0.00000  	0.00000  
44.85800  	32.93977  	5.14409  	5.46156  	19.96186  	-1.18512  	0.01438  	0.23978  	0.22199  	-3.02442  	0.07337  	-0.08568  	-164.56848  	-1.57384  	65.51726  	70.76980  	-18627.32728  	-4218.04926  	0.00436  	0.00003  	0.00423  	0.00428  	0.00508  	0.00000  	0.00000  
45.86132  	32.93906  	5.14494  	5.46420  	19.96140  	-1.18512  	0.01356  	0.23944  	0.22126  	-3.02442  	0.07429  	-0.08568  	-164.56527  	-1.58273  	65.30191  	70.66778  	-18627.07739  	-4218.25940  	0.00435  	0.00003  	0.00424  	0.00426  	0.00508  	0.00000  	0.00000  
46.86463  	32.93859  	5.14484  	5.46573  	19.96067  	-1.18512  	0.01377  	0.23859  	0.21975  	-3.02442  	0.07376  	-0.08574  	-164.56848  	-1.59082  	64.85749  	70.41686  	-18626.82436  	-4218.34503  	0.00435  	0.00002  	0.00424  	0.00426  	0.00507  	0.00000  	0.00000  
47.86595  	32.93778  	5.14536  	5.46633  	19.95948  	-1.18512  	0.01427  	0.23824  	0.22150  	-3.02442  	0.07348  	-0.08569  	-164.57327  	-1.59123  	65.37338  	70.31477  	-18626.39741  	-4218.41239  	0.00435  	0.00003  	0.00424  	0.00427  	0.00507  	0.00000  	0.00000  
48.86930  	32.93645  	5.14721  	5.46595  	19.95888  	-1.18512  	0.01460  	0.23819  	0.21713  	-3.02442  	0.07291  	-0.08569  	-164.56397  	-1.58012  	64.08341  	70.29796  	-18625.98936  	-4218.50080  	0.00435  	0.00003  	0.00423  	0.00428  	0.00507  	0.00000  	0.00000  
49.87262  	32.93579  	5.14762  	5.46642  	19.95774  	-1.18512  	0.01426  	0.23803  	0.22069  	-3.02442  	0.07240  	-0.08571  	-164.57015  	-1.58043  	65.13396  	70.25145  	-18625.60508  	-4218.55358  	0.00435  	0.00003  	0.00423  	0.00427  	0.00507  	0.00000  	0.00000  
50.87291  	32.93542  	5.14713  	5.46732  	19.95594  	-1.18512  	0.01356  	0.23650  	0.22299  	-3.02442  	0.07154  	-0.08567  	-164.58824  	-1.58734  	65.81425  	69.80034  	-18625.14421  	-4218.57782  	0.00436  	0.00003  	0.00423  	0.00426  	0.00506  	0.00000  	0.00000  
51.87623  	32.93411  	5.14822  	5.46717  	19.95451  	-1.18512  	0.01528  	0.23616  	0.21915  	-3.02442  	0.07141  	-0.08571  	-164.58963  	-1.58116  	64.67938  	69.70082  	-18624.56111  	-4218.63463  	0.00435  	0.00003  	0.00423  	0.00429  	0.00506  	0.00000  	0.00000  
52.87954  	32.93423  	5.14856  	5.46685  	19.95309  	-1.18512  	0.01540  	0.23645  	0.21931  	-3.02442  	0.07249  	-0.08570  	-164.60912  	-1.57789  	64.72641  	69.78468  	-18624.28536  	-4218.63584  	0.00435  	0.00003  	0.00423  	0.00430  	0.00506  	0.00000  	0.00000  
53.88086  	32.93375  	5.14801  	5.46649  	19.95098  	-1.18512  	0.01397  	0.23641  	0.21992  	-3.02442  	0.07165  	-0.08567  	-164.62998  	-1.57886  	64.90570  	69.77328  	-18623.73378  	-4218.58140  	0.00435  	0.00003  	0.00423  	0.00427  	0.00506  	0.00000  	0.00000  
54.88219  	32.93345  	5.14794  	5.46569  	19.94852  	-1.18512  	0.01433  	0.23553  	0.21629  	-3.02442  	0.07330  	-0.08570  	-164.65731  	-1.57524  	63.83481  	69.51504  	-18623.14781  	-4218.52941  	0.00435  	0.00003  	0.00423  	0.00428  	0.00506  	0.00000  	0.00000  
55.88553  	32.93299  	5.14761  	5.46535  	19.94546  	-1.18512  	0.01435  	0.23503  	0.21736  	-3.02442  	0.07266  	-0.08573  	-164.69032  	-1.57522  	64.15267  	69.36648  	-18622.39953  	-4218.48897  	0.00435  	0.00003  	0.00423  	0.00428  	0.00506  	0.00000  	0.00000  
56.88882  	32.93176  	5.14804  	5.46487  	19.94226  	-1.18512  	0.01405  	0.23566  	0.22024  	-3.02442  	0.07261  	-0.08570  	-164.71532  	-1.57068  	65.00234  	69.55097  	-18621.45537  	-4218.48521  	0.00435  	0.00003  	0.00423  	0.00427  	0.00506  	0.00000  	0.00000  
57.89014  	32.93203  	5.14731  	5.46349  	19.93976  	-1.18512  	0.01332  	0.23751  	0.22170  	-3.02442  	0.07226  	-0.08564  	-164.75045  	-1.56749  	65.43098  	70.09785  	-18620.98122  	-4218.35909  	0.00435  	0.00003  	0.00423  	0.00426  	0.00507  	0.00000  	0.00000  
58.89346  	32.93197  	5.14785  	5.46245  	19.93711  	-1.18512  	0.01465  	0.23799  	0.22154  	-3.02442  	0.07346  	-0.08568  	-164.78329  	-1.55962  	65.38598  	70.24115  	-18620.40711  	-4218.32871  	0.00435  	0.00003  	0.00424  	0.00428  	0.00507  	0.00000  	0.00000  
59.89677  	32.93147  	5.14691  	5.46116  	19.93389  	-1.18512  	0.01491  	0.23840  	0.22229  	-3.02442  	0.07170  	-0.08568  	-164.81797  	-1.55791  	65.60538  	70.36238  	-18619.61560  	-4218.19508  	0.00436  	0.00003  	0.00423  	0.00429  	0.00507  	0.00000  	0.00000  
60.89809  	32.93099  	5.14708  	5.45975  	19.93229  	-1.18512  	0.01562  	0.24044  	0.22567  	-3.02442  	0.07154  	-0.08566  	-164.83217  	-1.55003  	66.60367  	70.96285  	-18619.17199  	-4218.12045  	0.00436  	0.00003  	0.00423  	0.00430  	0.00508  	0.00000  	0.00000  
61.90141  	32.93117  	5.14608  	5.45792  	19.93091  	-1.18512  	0.01546  	0.24012  	0.22535  	-3.02442  	0.07274  	-0.08563  	-164.85196  	-1.54597  	66.50920  	70.86895  	-18618.91798  	-4217.95029  	0.00436  	0.00003  	0.00423  	0.00430  	0.00508  	0.00000  	0.00000  
62.90375  	32.93117  	5.14569  	5.45726  	19.93062  	-1.18512  	0.01515  	0.24041  	0.22158  	-3.02442  	0.07157  	-0.08572  	-164.85576  	-1.54457  	65.39570  	70.95411  	-18618.85736  	-4217.88730  	0.00435  	0.00003  	0.00423  	0.00429  	0.00508  	0.00000  	0.00000  
63.90505  	32.93116  	5.14432  	5.45733  	19.93152  	-1.18512  	0.01458  	0.24090  	0.22379  	-3.02442  	0.07298  	-0.08573  	-164.84419  	-1.55173  	66.04874  	71.10000  	-18619.04513  	-4217.80908  	0.00436  	0.00003  	0.00423  	0.00428  	0.00509  	0.00000  	0.00000  
64.90837  	32.93069  	5.14435  	5.45656  	19.93136  	-1.18512  	0.01408  	0.24122  	0.22485  	-3.02442  	0.07157  	-0.08572  	-164.84033  	-1.54780  	66.36140  	71.19282  	-18618.91037  	-4217.76497  	0.00436  	0.00003  	0.00423  	0.00427  	0.00509  	0.00000  	0.00000  
65.91168  	32.93095  	5.14392  	5.45720  	19.93304  	-1.18512  	0.01444  	0.24159  	0.22337  	-3.02442  	0.07252  	-0.08569  	-164.82237  	-1.55306  	65.92637  	71.30266  	-18619.32398  	-4217.77754  	0.00436  	0.00003  	0.00423  	0.00428  	0.00509  	0.00000  	0.00000  
66.91300  	32.93227  	5.14401  	5.45781  	19.93572  	-1.18512  	0.01438  	0.24266  	0.22707  	-3.02442  	0.07232  	-0.08568  	-164.80503  	-1.55569  	67.01771  	71.61776  	-18620.17570  	-4217.81959  	0.00436  	0.00003  	0.00423  	0.00428  	0.00509  	0.00000  	0.00000  
67.91632  	32.93226  	5.14293  	5.45760  	19.93827  	-1.18512  	0.01474  	0.24280  	0.22273  	-3.02442  	0.07148  	-0.08569  	-164.77266  	-1.55997  	65.73773  	71.66093  	-18620.71513  	-4217.74243  	0.00436  	0.00003  	0.00423  	0.00428  	0.00509  	0.00000  	0.00000  
68.91963  	32.93215  	5.14248  	5.45747  	19.94053  	-1.18512  	0.01456  	0.24216  	0.22235  	-3.02442  	0.07271  	-0.08579  	-164.74264  	-1.56155  	65.62351  	71.47046  	-18621.17075  	-4217.70682  	0.00436  	0.00002  	0.00423  	0.00428  	0.00509  	0.00000  	0.00000  
69.92096  	32.93174  	5.14254  	5.45712  	19.94305  	-1.18512  	0.01318  	0.24278  	0.22597  	-3.02442  	0.07271  	-0.08573  	-164.70543  	-1.55954  	66.69202  	71.65336  	-18621.62145  	-4217.68952  	0.00436  	0.00003  	0.00423  	0.00425  	0.00509  	0.00000  	0.00000  
70.92427  	32.93134  	5.14282  	5.45831  	19.94433  	-1.18512  	0.01366  	0.24241  	0.22057  	-3.02442  	0.07365  	-0.08573  	-164.68410  	-1.56406  	65.09825  	71.54360  	-18621.80814  	-4217.77798  	0.00435  	0.00003  	0.00424  	0.00426  	0.00509  	0.00000  	0.00000  
71.92659  	32.93151  	5.14284  	5.45834  	19.94807  	-1.18512  	0.01460  	0.24247  	0.22368  	-3.02442  	0.07215  	-0.08570  	-164.63882  	-1.56411  	66.01543  	71.56186  	-18622.63822  	-4217.78078  	0.00436  	0.00003  	0.00423  	0.00428  	0.00509  	0.00000  	0.00000  
72.92791  	32.93131  	5.14208  	5.45916  	19.94907  	-1.18512  	0.01393  	0.24169  	0.22712  	-3.02442  	0.07268  	-0.08569  	-164.62354  	-1.57188  	67.03156  	71.33195  	-18622.80876  	-4217.78472  	0.00436  	0.00003  	0.00423  	0.00427  	0.00509  	0.00000  	0.00000  
73.93123  	32.93134  	5.14276  	5.45918  	19.95106  	-1.18512  	0.01350  	0.24093  	0.22165  	-3.02442  	0.07184  	-0.08571  	-164.59881  	-1.56865  	65.41624  	71.10899  	-18623.23750  	-4217.82612  	0.00435  	0.00003  	0.00423  	0.00426  	0.00509  	0.00000  	0.00000  
74.93455  	32.93092  	5.14331  	5.45983  	19.95272  	-1.18512  	0.01439  	0.24005  	0.22234  	-3.02442  	0.07269  	-0.08567  	-164.57232  	-1.56912  	65.62251  	70.84892  	-18623.50223  	-4217.89864  	0.00436  	0.00003  	0.00423  	0.00428  	0.00508  	0.00000  	0.00000  
75.93587  	32.93156  	5.14259  	5.46205  	19.95323  	-1.18512  	0.01495  	0.23969  	0.22018  	-3.02442  	0.07129  	-0.08571  	-164.57388  	-1.58370  	64.98477  	70.74321  	-18623.74742  	-4217.98886  	0.00435  	0.00003  	0.00423  	0.00429  	0.00508  	0.00000  	0.00000  
76.93819  	32.92995  	5.14295  	5.46278  	19.95586  	-1.18512  	0.01447  	0.24020  	0.22297  	-3.02442  	0.07264  	-0.08566  	-164.52009  	-1.58555  	65.80599  	70.89272  	-18623.96447  	-4218.05471  	0.00436  	0.00003  	0.00423  	0.00428  	0.00508  	0.00000  	0.00000  
77.94151  	32.93082  	5.14275  	5.46213  	19.95707  	-1.18512  	0.01398  	0.23960  	0.21996  	-3.02442  	0.07210  	-0.08575  	-164.51587  	-1.58331  	64.91994  	70.71495  	-18624.40541  	-4218.00352  	0.00435  	0.00002  	0.00423  	0.00427  	0.00508  	0.00000  	0.00000  
78.94485  	32.92955  	5.14110  	5.46235  	19.95707  	-1.18512  	0.01471  	0.23942  	0.22576  	-3.02442  	0.07205  	-0.08574  	-164.49981  	-1.59260  	66.62998  	70.66102  	-18624.13371  	-4217.91713  	0.00436  	0.00003  	0.00423  	0.00428  	0.00508  	0.00000  	0.00000  
79.94614  	32.93004  	5.14229  	5.46166  	19.95839  	-1.18512  	0.01461  	0.23923  	0.22193  	-3.02442  	0.07309  	-0.08567  	-164.48931  	-1.58330  	65.50020  	70.60703  	-18624.52091  	-4217.94746  	0.00436  	0.00003  	0.00423  	0.00428  	0.00508  	0.00000  	0.00000  
80.94946  	32.92904  	5.14207  	5.46011  	19.95794  	-1.18512  	0.01325  	0.23850  	0.22063  	-3.02442  	0.07184  	-0.08568  	-164.48231  	-1.57665  	65.11778  	70.39065  	-18624.21295  	-4217.84091  	0.00435  	0.00003  	0.00423  	0.00425  	0.00507  	0.00000  	0.00000  
81.95278  	32.92812  	5.14171  	5.45910  	19.95738  	-1.18512  	0.01382  	0.23982  	0.22558  	-3.02442  	0.07219  	-0.08564  	-164.47786  	-1.57348  	66.57636  	70.78082  	-18623.89676  	-4217.75897  	0.00436  	0.00003  	0.00423  	0.00427  	0.00508  	0.00000  	0.00000  
82.95413  	32.92796  	5.14198  	5.45795  	19.95705  	-1.18512  	0.01459  	0.23861  	0.22101  	-3.02442  	0.07232  	-0.08568  	-164.47996  	-1.56643  	65.22751  	70.42184  	-18623.79332  	-4217.70585  	0.00435  	0.00003  	0.00423  	0.00428  	0.00507  	0.00000  	0.00000  
83.95644  	32.92754  	5.14143  	5.45815  	19.95744  	-1.18512  	0.01405  	0.23876  	0.22064  	-3.02442  	0.07383  	-0.08571  	-164.46983  	-1.57015  	65.11996  	70.46882  	-18623.78753  	-4217.68494  	0.00435  	0.00003  	0.00424  	0.00427  	0.00508  	0.00000  	0.00000  
84.95880  	32.92694  	5.14086  	5.45850  	19.95753  	-1.18512  	0.01367  	0.23713  	0.22192  	-3.02442  	0.07166  	-0.08565  	-164.46097  	-1.57470  	65.49693  	69.98717  	-18623.67841  	-4217.67138  	0.00436  	0.00003  	0.00423  	0.00426  	0.00507  	0.00000  	0.00000  
85.96011  	32.92612  	5.14151  	5.45997  	19.95589  	-1.18512  	0.01530  	0.23872  	0.22039  	-3.02442  	0.07185  	-0.08569  	-164.47128  	-1.57874  	65.04646  	70.45537  	-18623.15537  	-4217.79878  	0.00435  	0.00003  	0.00423  	0.00429  	0.00508  	0.00000  	0.00000  
86.96340  	32.92592  	5.14191  	5.46033  	19.95503  	-1.18512  	0.01489  	0.23721  	0.21966  	-3.02442  	0.07269  	-0.08574  	-164.47968  	-1.57854  	64.83060  	70.00981  	-18622.92899  	-4217.84450  	0.00435  	0.00003  	0.00423  	0.00429  	0.00507  	0.00000  	0.00000  
87.96672  	32.92491  	5.14295  	5.46190  	19.95348  	-1.18512  	0.01520  	0.23754  	0.21989  	-3.02442  	0.07114  	-0.08572  	-164.48644  	-1.58120  	64.89684  	70.10682  	-18622.38689  	-4218.00154  	0.00435  	0.00003  	0.00423  	0.00429  	0.00507  	0.00000  	0.00000  
88.96804  	32.92450  	5.14361  	5.46356  	19.95257  	-1.18512  	0.01533  	0.23628  	0.22116  	-3.02442  	0.07373  	-0.08569  	-164.49273  	-1.58613  	65.27267  	69.73511  	-18622.10634  	-4218.14076  	0.00435  	0.00003  	0.00424  	0.00429  	0.00506  	0.00000  	0.00000  
89.97135  	32.92359  	5.14385  	5.46373  	19.95082  	-1.18512  	0.01474  	0.23611  	0.21706  	-3.02442  	0.07224  	-0.08570  	-164.50329  	-1.58578  	64.06430  	69.68446  	-18621.53972  	-4218.16539  	0.00435  	0.00003  	0.00423  	0.00428  	0.00506  	0.00000  	0.00000  
90.97467  	32.92397  	5.14347  	5.46401  	19.94918  	-1.18512  	0.01429  	0.23503  	0.22251  	-3.02442  	0.07171  	-0.08566  	-164.52897  	-1.58911  	65.67206  	69.36548  	-18621.27316  	-4218.15938  	0.00436  	0.00003  	0.00423  	0.00427  	0.00506  	0.00000  	0.00000  
91.97599  	32.92249  	5.14516  	5.46618  	19.94643  	-1.18512  	0.01544  	0.23694  	0.21813  	-3.02442  	0.07301  	-0.08565  	-164.54483  	-1.59143  	64.37936  	69.93001  	-18620.37227  	-4218.39107  	0.00435  	0.00003  	0.00423  	0.00430  	0.00507  	0.00000  	0.00000  
92.97931  	32.92274  	5.14545  	5.46694  	19.94339  	-1.18512  	0.01438  	0.23506  	0.21659  	-3.02442  	0.07263  	-0.08576  	-164.58654  	-1.59377  	63.92422  	69.37426  	-18619.77939  	-4218.45467  	0.00435  	0.00002  	0.00423  	0.00428  	0.00506  	0.00000  	0.00000  
93.98262  	32.92232  	5.14553  	5.46641  	19.94120  	-1.18512  	0.01530  	0.23631  	0.21366  	-3.02442  	0.07163  	-0.08570  	-164.60900  	-1.59077  	63.05995  	69.74366  	-18619.22342  	-4218.42777  	0.00434  	0.00003  	0.00423  	0.00429  	0.00506  	0.00000  	0.00000  
94.98395  	32.92200  	5.14610  	5.46642  	19.93731  	-1.18512  	0.01522  	0.23706  	0.21669  	-3.02442  	0.07348  	-0.08567  	-164.65431  	-1.58796  	63.95429  	69.96605  	-18618.33018  	-4218.46257  	0.00435  	0.00003  	0.00424  	0.00429  	0.00507  	0.00000  	0.00000  
95.98726  	32.92073  	5.14663  	5.46618  	19.93458  	-1.18512  	0.01317  	0.23854  	0.21879  	-3.02442  	0.07309  	-0.08574  	-164.67283  	-1.58416  	64.57430  	70.40257  	-18617.47760  	-4218.47938  	0.00435  	0.00003  	0.00423  	0.00425  	0.00507  	0.00000  	0.00000  
96.99060  	32.92073  	5.14660  	5.46602  	19.93212  	-1.18512  	0.01440  	0.23903  	0.22290  	-3.02442  	0.07234  	-0.08563  	-164.70398  	-1.58353  	65.78535  	70.54821  	-18616.95550  	-4218.46874  	0.00436  	0.00003  	0.00423  	0.00428  	0.00508  	0.00000  	0.00000  
97.99192  	32.92148  	5.14539  	5.46512  	19.93009  	-1.18512  	0.01447  	0.23873  	0.22681  	-3.02442  	0.07419  	-0.08572  	-164.73938  	-1.58505  	66.93978  	70.45877  	-18616.68387  	-4218.34196  	0.00436  	0.00003  	0.00424  	0.00428  	0.00508  	0.00000  	0.00000  
98.99521  	32.92087  	5.14565  	5.46469  	19.92792  	-1.18512  	0.01513  	0.23962  	0.21970  	-3.02442  	0.07427  	-0.08573  	-164.75902  	-1.58164  	64.84262  	70.72155  	-18616.09307  	-4218.33142  	0.00435  	0.00003  	0.00424  	0.00429  	0.00508  	0.00000  	0.00000  
99.99853  	32.92104  	5.14463  	5.46378  	19.92822  	-1.18512  	0.01533  	0.24108  	0.22450  	-3.02442  	0.07303  	-0.08567  	-164.75752  	-1.58219  	66.25803  	71.15325  	-18616.19140  	-4218.21514  	0.00436  	0.00003  	0.00423  	0.00429  	0.00509  	0.00000  	0.00000  
100.99985  	32.92111  	5.14392  	5.46249  	19.92835  	-1.18512  	0.01473  	0.24083  	0.22398  	-3.02442  	0.07351  	-0.08570  	-164.75687  	-1.57929  	66.10386  	71.07724  	-18616.23674  	-4218.09521  	0.00436  	0.00003  	0.00424  	0.00428  	0.00508  	0.00000  	0.00000  
102.00217  	32.92206  	5.14409  	5.46146  	19.92926  	-1.18512  	0.01443  	0.24141  	0.22291  	-3.02442  	0.07279  	-0.08566  	-164.75748  	-1.57337  	65.79021  	71.24856  	-18616.63091  	-4218.04340  	0.00436  	0.00003  	0.00423  	0.00428  	0.00509  	0.00000  	0.00000  
103.00549  	32.92179  	5.14450  	5.46050  	19.93127  	-1.18512  	0.01353  	0.24107  	0.22280  	-3.02442  	0.07198  	-0.08571  	-164.72853  	-1.56654  	65.75607  	71.14823  	-18616.99993  	-4218.01033  	0.00436  	0.00003  	0.00423  	0.00426  	0.00509  	0.00000  	0.00000  
104.00880  	32.92222  	5.14371  	5.46057  	19.93235  	-1.18512  	0.01439  	0.24145  	0.22438  	-3.02442  	0.07346  	-0.08571  	-164.72030  	-1.57086  	66.22193  	71.26117  	-18617.32097  	-4217.96715  	0.00436  	0.00003  	0.00424  	0.00428  	0.00509  	0.00000  	0.00000  
105.00916  	32.92195  	5.14252  	5.45917  	19.93422  	-1.18512  	0.01388  	0.24229  	0.22441  	-3.02442  	0.07246  	-0.08572  	-164.69329  	-1.56979  	66.23164  	71.50968  	-18617.66276  	-4217.81197  	0.00436  	0.00003  	0.00423  	0.00427  	0.00509  	0.00000  	0.00000  
106.01244  	32.92280  	5.14204  	5.45821  	19.93662  	-1.18512  	0.01339  	0.24160  	0.22277  	-3.02442  	0.07147  	-0.08569  	-164.67371  	-1.56742  	65.74667  	71.30423  	-18618.35263  	-4217.72551  	0.00436  	0.00003  	0.00423  	0.00426  	0.00509  	0.00000  	0.00000  
107.01576  	32.92323  	5.14115  	5.45630  	19.93909  	-1.18512  	0.01520  	0.24151  	0.22596  	-3.02442  	0.07147  	-0.08562  	-164.64786  	-1.56237  	66.68912  	71.28044  	-18618.96933  	-4217.55683  	0.00436  	0.00003  	0.00423  	0.00429  	0.00509  	0.00000  	0.00000  
108.01711  	32.92350  	5.14040  	5.45533  	19.94088  	-1.18512  	0.01223  	0.23901  	0.21984  	-3.02442  	0.07118  	-0.08570  	-164.62861  	-1.56127  	64.88189  	70.54185  	-18619.40777  	-4217.45352  	0.00435  	0.00003  	0.00423  	0.00423  	0.00508  	0.00000  	0.00000  
109.02040  	32.92374  	5.13957  	5.45436  	19.94445  	-1.18512  	0.01422  	0.24101  	0.22376  	-3.02442  	0.07056  	-0.08568  	-164.58648  	-1.56056  	66.04020  	71.13113  	-18620.21889  	-4217.34593  	0.00436  	0.00003  	0.00423  	0.00427  	0.00509  	0.00000  	0.00000  
110.02371  	32.92430  	5.13824  	5.45205  	19.94640  	-1.18512  	0.01667  	0.24143  	0.22627  	-3.02442  	0.07255  	-0.08565  	-164.56900  	-1.55571  	66.77966  	71.25426  	-18620.75039  	-4217.12643  	0.00436  	0.00003  	0.00423  	0.00432  	0.00509  	0.00000  	0.00000  
111.02503  	32.92270  	5.13923  	5.45167  	19.94847  	-1.18512  	0.01621  	0.24046  	0.22215  	-3.02442  	0.07292  	-0.08565  	-164.52248  	-1.54895  	65.56583  	70.96988  	-18620.85047  	-4217.16343  	0.00436  	0.00003  	0.00423  	0.00431  	0.00508  	0.00000  	0.00000  
112.02835  	32.92422  	5.13810  	5.44993  	19.94996  	-1.18512  	0.01634  	0.24029  	0.22161  	-3.02442  	0.07190  	-0.08573  	-164.52285  	-1.54591  	65.40483  	70.92019  	-18621.49059  	-4216.99114  	0.00435  	0.00003  	0.00423  	0.00431  	0.00508  	0.00000  	0.00000  
113.03167  	32.92422  	5.13785  	5.45082  	19.95114  	-1.18512  	0.01430  	0.23974  	0.22495  	-3.02442  	0.07383  	-0.08570  	-164.50798  	-1.55155  	66.39126  	70.75761  	-18621.74196  	-4217.02920  	0.00436  	0.00003  	0.00424  	0.00427  	0.00508  	0.00000  	0.00000  
114.03301  	32.92446  	5.13751  	5.45325  	19.95286  	-1.18512  	0.01396  	0.23962  	0.22364  	-3.02442  	0.07294  	-0.08575  	-164.48920  	-1.56527  	66.00628  	70.72258  	-18622.15799  	-4217.15490  	0.00436  	0.00002  	0.00423  	0.00427  	0.00508  	0.00000  	0.00000  
115.03630  	32.92327  	5.13761  	5.45389  	19.95360  	-1.18512  	0.01513  	0.23922  	0.22097  	-3.02442  	0.07151  	-0.08570  	-164.46465  	-1.56795  	65.21755  	70.60432  	-18622.06344  	-4217.19958  	0.00435  	0.00003  	0.00423  	0.00429  	0.00508  	0.00000  	0.00000  
116.03962  	32.92406  	5.13779  	5.45473  	19.95504  	-1.18512  	0.01415  	0.24041  	0.22250  	-3.02442  	0.07151  	-0.08568  	-164.45634  	-1.57121  	65.66935  	70.95570  	-18622.53733  	-4217.26113  	0.00436  	0.00003  	0.00423  	0.00427  	0.00508  	0.00000  	0.00000  
117.04094  	32.92455  	5.13806  	5.45541  	19.95566  	-1.18512  	0.01436  	0.23918  	0.22174  	-3.02442  	0.07296  	-0.08569  	-164.45471  	-1.57327  	65.44475  	70.59072  	-18622.77293  	-4217.31817  	0.00435  	0.00003  	0.00423  	0.00428  	0.00508  	0.00000  	0.00000  
118.04426  	32.92435  	5.13774  	5.45697  	19.95501  	-1.18512  	0.01519  	0.23904  	0.22559  	-3.02442  	0.07226  	-0.08570  	-164.46021  	-1.58259  	66.57963  	70.55129  	-18622.59175  	-4217.39258  	0.00436  	0.00003  	0.00423  	0.00429  	0.00508  	0.00000  	0.00000  
119.04757  	32.92346  	5.13834  	5.45756  	19.95460  	-1.18512  	0.01556  	0.23860  	0.22390  	-3.02442  	0.07338  	-0.08564  	-164.45408  	-1.58252  	66.08093  	70.42079  	-18622.31551  	-4217.46408  	0.00436  	0.00003  	0.00423  	0.00430  	0.00507  	0.00000  	0.00000  
120.04890  	32.92315  	5.13763  	5.45852  	19.95443  	-1.18512  	0.01377  	0.23770  	0.22129  	-3.02442  	0.07221  	-0.08563  	-164.45240  	-1.59078  	65.31270  	70.15340  	-18622.21239  	-4217.47872  	0.00435  	0.00003  	0.00423  	0.00426  	0.00507  	0.00000  	0.00000  
121.05022  	32.92343  	5.13735  	5.45810  	19.95396  	-1.18512  	0.01350  	0.23797  	0.21895  	-3.02442  	0.07112  	-0.08568  	-164.46190  	-1.59010  	64.62021  	70.23407  	-18622.17422  	-4217.43667  	0.00435  	0.00003  	0.00423  	0.00426  	0.00507  	0.00000  	0.00000  
122.05356  	32.92280  	5.13786  	5.45684  	19.95352  	-1.18512  	0.01448  	0.23779  	0.21991  	-3.02442  	0.07253  	-0.08564  	-164.45948  	-1.58130  	64.90471  	70.18139  	-18621.94497  	-4217.39181  	0.00435  	0.00003  	0.00423  	0.00428  	0.00507  	0.00000  	0.00000  
123.05485  	32.92223  	5.13805  	5.45699  	19.95233  	-1.18512  	0.01408  	0.23762  	0.21804  	-3.02442  	0.07340  	-0.08564  	-164.46736  	-1.58117  	64.35071  	70.13068  	-18621.57275  	-4217.41215  	0.00435  	0.00003  	0.00423  	0.00427  	0.00507  	0.00000  	0.00000  
124.05620  	32.92267  	5.13788  	5.45787  	19.95091  	-1.18512  	0.01445  	0.23650  	0.22030  	-3.02442  	0.07091  	-0.08565  	-164.49093  	-1.58634  	65.01765  	69.79966  	-18621.36475  	-4217.45459  	0.00435  	0.00003  	0.00423  	0.00428  	0.00506  	0.00000  	0.00000  
125.06049  	32.92214  	5.13750  	5.45705  	19.95000  	-1.18512  	0.01432  	0.23655  	0.21866  	-3.02442  	0.07242  	-0.08562  	-164.49576  	-1.58417  	64.53489  	69.81655  	-18621.05710  	-4217.38294  	0.00435  	0.00003  	0.00423  	0.00427  	0.00507  	0.00000  	0.00000  
126.06381  	32.92299  	5.13626  	5.45638  	19.94772  	-1.18512  	0.01425  	0.23619  	0.22131  	-3.02442  	0.07260  	-0.08571  	-164.53563  	-1.58697  	65.31669  	69.70983  	-18620.75211  	-4217.26773  	0.00435  	0.00003  	0.00423  	0.00427  	0.00506  	0.00000  	0.00000  
127.06513  	32.92170  	5.13751  	5.45669  	19.94440  	-1.18512  	0.01498  	0.23408  	0.21750  	-3.02442  	0.07299  	-0.08573  	-164.56121  	-1.58230  	64.19312  	69.08673  	-18619.77415  	-4217.36168  	0.00435  	0.00003  	0.00423  	0.00429  	0.00505  	0.00000  	0.00000  
128.06747  	32.92171  	5.13755  	5.45676  	19.94268  	-1.18512  	0.01418  	0.23595  	0.21378  	-3.02442  	0.07152  	-0.08572  	-164.58319  	-1.58249  	63.09441  	69.63807  	-18619.40899  	-4217.36848  	0.00434  	0.00003  	0.00423  	0.00427  	0.00506  	0.00000  	0.00000  
129.07076  	32.92163  	5.13783  	5.45650  	19.94056  	-1.18512  	0.01436  	0.23537  	0.21847  	-3.02442  	0.07223  	-0.08570  	-164.60902  	-1.57982  	64.48046  	69.46617  	-18618.94113  	-4217.36972  	0.00435  	0.00003  	0.00423  	0.00428  	0.00506  	0.00000  	0.00000  
130.07208  	32.92054  	5.13766  	5.45708  	19.93799  	-1.18512  	0.01478  	0.23670  	0.21819  	-3.02442  	0.07271  	-0.08577  	-164.62778  	-1.58355  	64.39608  	69.85799  	-18618.16221  	-4217.39394  	0.00435  	0.00002  	0.00423  	0.00428  	0.00507  	0.00000  	0.00000  
131.07440  	32.92022  	5.13766  	5.45769  	19.93443  	-1.18512  	0.01452  	0.23841  	0.22359  	-3.02442  	0.07269  	-0.08567  	-164.66889  	-1.58653  	65.98943  	70.36488  	-18617.33739  	-4217.43097  	0.00436  	0.00003  	0.00423  	0.00428  	0.00507  	0.00000  	0.00000  
132.07772  	32.92128  	5.13895  	5.45922  	19.93249  	-1.18512  	0.01472  	0.23943  	0.22117  	-3.02442  	0.07231  	-0.08572  	-164.70689  	-1.58773  	65.27656  	70.66524  	-18617.15199  	-4217.60040  	0.00435  	0.00003  	0.00423  	0.00428  	0.00508  	0.00000  	0.00000  
133.07904  	32.92110  	5.13996  	5.45998  	19.93017  	-1.18512  	0.01348  	0.23970  	0.22154  	-3.02442  	0.07356  	-0.08569  	-164.73394  	-1.58648  	65.38398  	70.74446  	-18616.61882  	-4217.70625  	0.00435  	0.00003  	0.00424  	0.00426  	0.00508  	0.00000  	0.00000  
134.08236  	32.92104  	5.13986  	5.46124  	19.92930  	-1.18512  	0.01504  	0.23996  	0.22202  	-3.02442  	0.07182  	-0.08571  	-164.74412  	-1.59325  	65.52810  	70.82013  	-18616.42045  	-4217.77585  	0.00436  	0.00003  	0.00423  	0.00429  	0.00508  	0.00000  	0.00000  
135.08567  	32.92109  	5.14048  	5.46180  	19.92901  	-1.18512  	0.01532  	0.24001  	0.22326  	-3.02442  	0.07301  	-0.08566  	-164.74837  	-1.59294  	65.89347  	70.83534  	-18616.37099  	-4217.84757  	0.00436  	0.00003  	0.00423  	0.00429  	0.00508  	0.00000  	0.00000  
136.08699  	32.92209  	5.14085  	5.46205  	19.93060  	-1.18512  	0.01531  	0.24127  	0.22314  	-3.02442  	0.07340  	-0.08565  	-164.74081  	-1.59234  	65.85695  	71.20769  	-18616.92246  	-4217.88462  	0.00436  	0.00003  	0.00423  	0.00429  	0.00509  	0.00000  	0.00000  
137.09031  	32.92180  	5.14223  	5.46251  	19.93107  	-1.18512  	0.01428  	0.24115  	0.22620  	-3.02442  	0.07147  	-0.08572  	-164.73121  	-1.58778  	66.76176  	71.17168  	-18616.96121  	-4217.99465  	0.00436  	0.00003  	0.00423  	0.00427  	0.00509  	0.00000  	0.00000  
138.09362  	32.92236  	5.14156  	5.46221  	19.93224  	-1.18512  	0.01379  	0.24154  	0.22333  	-3.02442  	0.07160  	-0.08569  	-164.72351  	-1.58958  	65.91277  	71.28775  	-18617.32775  	-4217.93663  	0.00436  	0.00003  	0.00423  	0.00426  	0.00509  	0.00000  	0.00000  
139.09495  	32.92292  	5.14291  	5.46294  	19.93393  	-1.18512  	0.01477  	0.24159  	0.22460  	-3.02442  	0.07270  	-0.08571  	-164.70898  	-1.58655  	66.28777  	71.30127  	-18617.80683  	-4218.06117  	0.00436  	0.00003  	0.00423  	0.00428  	0.00509  	0.00000  	0.00000  
