10/15/2024 09:16:22Time	T_hot_in(C)	T_cold_in(C)	T_cold_out(C)	T_hot_out(C)	mdot_cold(kg/s)	ASFASIFUAS(kg/s)	Diferencial_cold(bar)	Diferencial_hot(bar)	mdot_hot(kg/s)	ABS_cold(bar)	ABS_hot(bar)	q_cold(kW)	q_hot(kW)	ASFASYFY	Tau_cold_haste	Re_hot	Re_cold	U_global	PSIG_cold(bar)	R_fouling	PSIG_hot(bar)	PSID_hot(bar)	m_dot_hot	PSID_cold(bar)	m_dot_cold
1.74038  	0.00000  	0.00000  	0.00000  	0.00000  	-1.18512  	-0.20833  	-0.86278  	-2.50000  	-3.02442  	-1.25000  	-0.08628  	-0.00000  	-0.00000  	-737.84722  	-254.63905  	-9234.48090  	-3618.55272  	0.00000  	0.00000  	0.00000  	0.00000  	0.00000  	0.00000  	0.00000  
2.74169  	21.63581  	50.09559  	49.77728  	25.85945  	-1.18512  	0.05132  	1.44256  	1.48230  	-3.02442  	0.06218  	-0.08571  	-53.41336  	-1.57803  	437.48339  	425.75575  	-17491.72470  	-11473.73968  	0.00637  	0.00003  	0.00420  	0.00499  	0.01062  	0.00000  	0.00000  
3.74301  	21.63660  	50.09219  	49.77553  	25.86463  	-1.18512  	0.05282  	1.44035  	1.47752  	-3.02442  	0.06306  	-0.08570  	-53.46892  	-1.56983  	436.07253  	425.10446  	-17492.96262  	-11473.25867  	0.00636  	0.00003  	0.00420  	0.00501  	0.01061  	0.00000  	0.00000  
4.74633  	21.63626  	50.08971  	49.77229  	25.87118  	-1.18512  	0.05165  	1.43811  	1.47715  	-3.02442  	0.06270  	-0.08563  	-53.55619  	-1.57362  	435.96496  	424.44115  	-17494.25080  	-11472.72464  	0.00636  	0.00003  	0.00420  	0.00499  	0.01060  	0.00000  	0.00000  
5.74765  	21.63764  	50.08671  	49.76960  	25.87685  	-1.18512  	0.05209  	1.43840  	1.47899  	-3.02442  	0.06399  	-0.08567  	-53.61035  	-1.57205  	436.50698  	424.52904  	-17495.71362  	-11472.19273  	0.00637  	0.00003  	0.00420  	0.00500  	0.01060  	0.00000  	0.00000  
6.74997  	21.63801  	50.08408  	49.76696  	25.88260  	-1.18512  	0.05132  	1.43862  	1.47436  	-3.02442  	0.06209  	-0.08565  	-53.67838  	-1.57214  	435.14053  	424.59204  	-17496.98192  	-11471.70014  	0.00636  	0.00003  	0.00420  	0.00499  	0.01060  	0.00000  	0.00000  
7.75229  	21.63851  	50.08061  	49.76351  	25.88980  	-1.18512  	0.04988  	1.43727  	1.47524  	-3.02442  	0.06239  	-0.08568  	-53.76307  	-1.57204  	435.40086  	424.19540  	-17498.57824  	-11471.05376  	0.00636  	0.00003  	0.00420  	0.00496  	0.01060  	0.00000  	0.00000  
8.75261  	21.64068  	50.07684  	49.76104  	25.89559  	-1.18512  	0.05009  	1.43699  	1.47555  	-3.02442  	0.06121  	-0.08560  	-53.80887  	-1.56559  	435.49332  	424.11061  	-17500.22776  	-11470.47131  	0.00636  	0.00003  	0.00420  	0.00496  	0.01060  	0.00000  	0.00000  
9.75593  	21.64216  	50.07427  	49.75711  	25.90105  	-1.18512  	0.05173  	1.43644  	1.47580  	-3.02442  	0.06328  	-0.08569  	-53.85926  	-1.57233  	435.56669  	423.95049  	-17501.66829  	-11469.86405  	0.00636  	0.00003  	0.00420  	0.00499  	0.01059  	0.00000  	0.00000  
10.75924  	21.64360  	50.07058  	49.75398  	25.90652  	-1.18512  	0.05069  	1.43711  	1.47751  	-3.02442  	0.06187  	-0.08564  	-53.91013  	-1.56956  	436.06987  	424.14653  	-17503.09972  	-11469.22565  	0.00636  	0.00003  	0.00420  	0.00497  	0.01060  	0.00000  	0.00000  
11.76057  	21.64499  	50.06757  	49.75140  	25.91238  	-1.18512  	0.05157  	1.43742  	1.47400  	-3.02442  	0.06180  	-0.08568  	-53.96675  	-1.56739  	435.03528  	424.23806  	-17504.60513  	-11468.70382  	0.00636  	0.00003  	0.00420  	0.00499  	0.01060  	0.00000  	0.00000  
12.76388  	21.64683  	50.06587  	49.74843  	25.91781  	-1.18512  	0.05157  	1.43739  	1.47507  	-3.02442  	0.06211  	-0.08567  	-54.01218  	-1.57375  	435.34954  	424.23038  	-17506.11154  	-11468.26761  	0.00636  	0.00003  	0.00420  	0.00499  	0.01060  	0.00000  	0.00000  
13.76620  	21.64930  	50.06379  	49.74664  	25.92240  	-1.18512  	0.05205  	1.43743  	1.47756  	-3.02442  	0.06267  	-0.08571  	-54.03892  	-1.57227  	436.08437  	424.24258  	-17507.57484  	-11467.90618  	0.00636  	0.00003  	0.00420  	0.00500  	0.01060  	0.00000  	0.00000  
14.76753  	21.65004  	50.06143  	49.74489  	25.92604  	-1.18512  	0.05107  	1.43671  	1.47646  	-3.02442  	0.06315  	-0.08568  	-54.07567  	-1.56924  	435.76129  	424.03007  	-17508.48434  	-11467.52158  	0.00636  	0.00003  	0.00420  	0.00498  	0.01059  	0.00000  	0.00000  
15.76984  	21.65193  	50.05967  	49.74262  	25.93059  	-1.18512  	0.05114  	1.43587  	1.47762  	-3.02442  	0.06149  	-0.08563  	-54.10924  	-1.57178  	436.10281  	423.77960  	-17509.82238  	-11467.14493  	0.00636  	0.00003  	0.00420  	0.00498  	0.01059  	0.00000  	0.00000  
16.77316  	21.65358  	50.05547  	49.73974  	25.93457  	-1.18512  	0.05088  	1.43553  	1.47526  	-3.02442  	0.06207  	-0.08569  	-54.13873  	-1.56523  	435.40727  	423.67946  	-17510.98840  	-11466.48309  	0.00636  	0.00003  	0.00420  	0.00498  	0.01059  	0.00000  	0.00000  
17.77448  	21.65583  	50.05343  	49.73620  	25.93788  	-1.18512  	0.05051  	1.43503  	1.47140  	-3.02442  	0.06339  	-0.08570  	-54.15215  	-1.57265  	434.26822  	423.53461  	-17512.14018  	-11465.96266  	0.00635  	0.00003  	0.00420  	0.00497  	0.01059  	0.00000  	0.00000  
18.77779  	21.65647  	50.05177  	49.73449  	25.94132  	-1.18512  	0.05215  	1.43561  	1.47657  	-3.02442  	0.06387  	-0.08561  	-54.18756  	-1.57293  	435.79234  	423.70515  	-17512.98891  	-11465.64838  	0.00636  	0.00003  	0.00420  	0.00500  	0.01059  	0.00000  	0.00000  
19.77912  	21.65870  	50.04812  	49.73273  	25.94545  	-1.18512  	0.05223  	1.43440  	1.47098  	-3.02442  	0.06201  	-0.08574  	-54.21163  	-1.56355  	434.14260  	423.34798  	-17514.30763  	-11465.14311  	0.00635  	0.00002  	0.00420  	0.00500  	0.01058  	0.00000  	0.00000  
20.78044  	21.66020  	50.04582  	49.73047  	25.94960  	-1.18512  	0.05119  	1.43529  	1.47117  	-3.02442  	0.06212  	-0.08571  	-54.24515  	-1.56334  	434.19954  	423.60916  	-17515.47983  	-11464.71564  	0.00635  	0.00003  	0.00420  	0.00498  	0.01059  	0.00000  	0.00000  
21.78273  	21.66183  	50.04450  	49.72735  	25.95290  	-1.18512  	0.05233  	1.43473  	1.47211  	-3.02442  	0.06118  	-0.08577  	-54.26621  	-1.57225  	434.47556  	423.44607  	-17516.50068  	-11464.30161  	0.00636  	0.00002  	0.00420  	0.00500  	0.01059  	0.00000  	0.00000  
22.78607  	21.66410  	50.04188  	49.72587  	25.95598  	-1.18512  	0.05115  	1.43514  	1.47301  	-3.02442  	0.06117  	-0.08569  	-54.27641  	-1.56662  	434.74394  	423.56648  	-17517.61130  	-11463.91785  	0.00636  	0.00003  	0.00420  	0.00498  	0.01059  	0.00000  	0.00000  
23.78936  	21.66589  	50.03889  	49.72400  	25.96083  	-1.18512  	0.05344  	1.43502  	1.47033  	-3.02442  	0.06340  	-0.08576  	-54.31507  	-1.56110  	433.95034  	423.53121  	-17518.98871  	-11463.46478  	0.00635  	0.00002  	0.00420  	0.00503  	0.01059  	0.00000  	0.00000  
24.79071  	21.66792  	50.03708  	49.72236  	25.96354  	-1.18512  	0.05132  	1.43454  	1.46998  	-3.02442  	0.06130  	-0.08569  	-54.32367  	-1.56024  	433.84955  	423.38976  	-17519.97347  	-11463.14174  	0.00635  	0.00003  	0.00420  	0.00499  	0.01058  	0.00000  	0.00000  
25.79403  	21.67083  	50.03426  	49.71897  	25.96684  	-1.18512  	0.05201  	1.43277  	1.47357  	-3.02442  	0.06201  	-0.08565  	-54.32869  	-1.56303  	434.90776  	422.86577  	-17521.25962  	-11462.56231  	0.00636  	0.00003  	0.00420  	0.00500  	0.01058  	0.00000  	0.00000  
26.79734  	21.67188  	50.03209  	49.71666  	25.96936  	-1.18512  	0.05241  	1.43292  	1.47023  	-3.02442  	0.06167  	-0.08569  	-54.34732  	-1.56375  	433.92162  	422.91137  	-17522.00209  	-11462.14428  	0.00635  	0.00003  	0.00420  	0.00501  	0.01058  	0.00000  	0.00000  
27.79864  	21.67487  	50.03014  	49.71478  	25.97263  	-1.18512  	0.05235  	1.43300  	1.46952  	-3.02442  	0.06157  	-0.08569  	-54.35079  	-1.56341  	433.71360  	422.93411  	-17523.29885  	-11461.78607  	0.00635  	0.00003  	0.00420  	0.00501  	0.01058  	0.00000  	0.00000  
28.80198  	21.67712  	50.02854  	49.71244  	25.97679  	-1.18512  	0.05265  	1.43462  	1.47228  	-3.02442  	0.06315  	-0.08573  	-54.37501  	-1.56704  	434.52765  	423.41146  	-17524.63080  	-11461.41771  	0.00636  	0.00003  	0.00420  	0.00501  	0.01058  	0.00000  	0.00000  
29.80527  	21.67944  	50.02596  	49.71101  	25.97978  	-1.18512  	0.05302  	1.43346  	1.46534  	-3.02442  	0.06169  	-0.08567  	-54.38347  	-1.56135  	432.48020  	423.06849  	-17525.73218  	-11461.04384  	0.00634  	0.00003  	0.00420  	0.00502  	0.01058  	0.00000  	0.00000  
30.80662  	21.68209  	50.02347  	49.70975  	25.98296  	-1.18512  	0.05243  	1.43214  	1.46890  	-3.02442  	0.06289  	-0.08571  	-54.39004  	-1.55527  	433.52913  	422.67888  	-17526.94297  	-11460.69231  	0.00635  	0.00003  	0.00420  	0.00501  	0.01057  	0.00000  	0.00000  
31.80891  	21.68404  	50.02155  	49.70681  	25.98503  	-1.18512  	0.05227  	1.43116  	1.47137  	-3.02442  	0.06245  	-0.08572  	-54.39156  	-1.56033  	434.25762  	422.39000  	-17527.77574  	-11460.23821  	0.00635  	0.00003  	0.00420  	0.00500  	0.01057  	0.00000  	0.00000  
32.81222  	21.68655  	50.01942  	49.70546  	25.98840  	-1.18512  	0.05106  	1.43205  	1.46723  	-3.02442  	0.06066  	-0.08568  	-54.40243  	-1.55648  	433.03555  	422.65240  	-17528.99637  	-11459.91357  	0.00635  	0.00003  	0.00419  	0.00498  	0.01057  	0.00000  	0.00000  
33.81355  	21.68891  	50.01738  	49.70331  	25.99159  	-1.18512  	0.05174  	1.43142  	1.46719  	-3.02442  	0.06238  	-0.08568  	-54.41306  	-1.55704  	433.02508  	422.46786  	-17530.14782  	-11459.52254  	0.00635  	0.00003  	0.00420  	0.00499  	0.01057  	0.00000  	0.00000  
34.81689  	21.69179  	50.01518  	49.70047  	25.99445  	-1.18512  	0.05312  	1.43098  	1.47323  	-3.02442  	0.06023  	-0.08566  	-54.41279  	-1.56018  	434.80835  	422.33828  	-17531.33812  	-11459.05122  	0.00636  	0.00003  	0.00419  	0.00502  	0.01057  	0.00000  	0.00000  
35.82021  	21.69421  	50.01262  	49.69874  	25.99756  	-1.18512  	0.05275  	1.43150  	1.46735  	-3.02442  	0.06238  	-0.08570  	-54.42142  	-1.55610  	433.07267  	422.49232  	-17532.48663  	-11458.65130  	0.00635  	0.00003  	0.00420  	0.00501  	0.01057  	0.00000  	0.00000  
36.82153  	21.69640  	50.01028  	49.69548  	26.00025  	-1.18512  	0.05082  	1.43089  	1.46501  	-3.02442  	0.06262  	-0.08570  	-54.42791  	-1.56061  	432.38165  	422.31008  	-17533.50014  	-11458.12751  	0.00634  	0.00003  	0.00420  	0.00498  	0.01057  	0.00000  	0.00000  
37.82385  	21.69953  	50.00827  	49.69339  	26.00366  	-1.18512  	0.05149  	1.43072  	1.46703  	-3.02442  	0.06194  	-0.08564  	-54.43136  	-1.56098  	432.97789  	422.26222  	-17534.85840  	-11457.74516  	0.00635  	0.00003  	0.00420  	0.00499  	0.01057  	0.00000  	0.00000  
38.82617  	21.70199  	50.00665  	49.69149  	26.00615  	-1.18512  	0.05193  	1.43160  	1.46649  	-3.02442  	0.06309  	-0.08569  	-54.43175  	-1.56242  	432.81965  	422.52014  	-17535.88299  	-11457.41635  	0.00635  	0.00003  	0.00420  	0.00500  	0.01057  	0.00000  	0.00000  
39.82749  	21.70516  	50.00363  	49.68945  	26.01024  	-1.18512  	0.05258  	1.43116  	1.46871  	-3.02442  	0.06295  	-0.08571  	-54.44335  	-1.55755  	433.47326  	422.39077  	-17537.38962  	-11456.94391  	0.00635  	0.00003  	0.00420  	0.00501  	0.01057  	0.00000  	0.00000  
40.83080  	21.70799  	50.00309  	49.68761  	26.01384  	-1.18512  	0.05060  	1.43038  	1.47115  	-3.02442  	0.06222  	-0.08567  	-54.45308  	-1.56404  	434.19282  	422.16101  	-17538.72589  	-11456.72149  	0.00635  	0.00003  	0.00420  	0.00497  	0.01057  	0.00000  	0.00000  
41.83312  	21.71051  	50.00179  	49.68553  	26.01636  	-1.18512  	0.05023  	1.43043  	1.46869  	-3.02442  	0.06311  	-0.08569  	-54.45309  	-1.56786  	433.46829  	422.17659  	-17539.77380  	-11456.40621  	0.00635  	0.00003  	0.00420  	0.00496  	0.01057  	0.00000  	0.00000  
42.83444  	21.71340  	49.99956  	49.68509  	26.01957  	-1.18512  	0.05057  	1.42953  	1.46797  	-3.02442  	0.06186  	-0.08567  	-54.45721  	-1.55897  	433.25566  	421.91089  	-17541.03887  	-11456.15629  	0.00635  	0.00003  	0.00420  	0.00497  	0.01056  	0.00000  	0.00000  
43.83676  	21.71757  	49.99657  	49.68283  	26.02209  	-1.18512  	0.05199  	1.42894  	1.46323  	-3.02442  	0.06145  	-0.08569  	-54.43628  	-1.55538  	431.85463  	421.73606  	-17542.42747  	-11455.66616  	0.00634  	0.00003  	0.00420  	0.00500  	0.01056  	0.00000  	0.00000  
44.84008  	21.71931  	49.99575  	49.68102  	26.02509  	-1.18512  	0.05234  	1.42650  	1.46686  	-3.02442  	0.06145  	-0.08566  	-54.45213  	-1.56028  	432.92628  	421.01447  	-17543.41032  	-11455.42097  	0.00635  	0.00003  	0.00420  	0.00501  	0.01055  	0.00000  	0.00000  
45.84237  	21.72279  	49.99296  	49.67870  	26.02749  	-1.18512  	0.05137  	1.42392  	1.45962  	-3.02442  	0.06185  	-0.08568  	-54.43850  	-1.55794  	430.79168  	420.25547  	-17544.63159  	-11454.94281  	0.00634  	0.00003  	0.00420  	0.00499  	0.01054  	0.00000  	0.00000  
46.84372  	21.72561  	49.99142  	49.67730  	26.03129  	-1.18512  	0.05327  	1.42240  	1.46304  	-3.02442  	0.06345  	-0.08562  	-54.45095  	-1.55726  	431.79954  	419.80642  	-17546.00761  	-11454.66822  	0.00634  	0.00003  	0.00420  	0.00502  	0.01053  	0.00000  	0.00000  
47.84703  	21.72838  	49.98930  	49.67507  	26.03671  	-1.18512  	0.05155  	1.42289  	1.46213  	-3.02442  	0.06255  	-0.08567  	-54.48448  	-1.55777  	431.53148  	419.95053  	-17547.70489  	-11454.26219  	0.00634  	0.00003  	0.00420  	0.00499  	0.01053  	0.00000  	0.00000  
48.84935  	21.73129  	49.98828  	49.67314  	26.04102  	-1.18512  	0.05148  	1.42288  	1.46093  	-3.02442  	0.06243  	-0.08577  	-54.50207  	-1.56230  	431.17690  	419.94830  	-17549.20484  	-11453.98773  	0.00634  	0.00002  	0.00420  	0.00499  	0.01053  	0.00000  	0.00000  
49.84968  	21.73510  	49.98667  	49.67155  	26.04619  	-1.18512  	0.05081  	1.42172  	1.46234  	-3.02442  	0.06226  	-0.08574  	-54.51937  	-1.56221  	431.59347  	419.60451  	-17551.06878  	-11453.68780  	0.00634  	0.00002  	0.00420  	0.00498  	0.01053  	0.00000  	0.00000  
50.85197  	21.73778  	49.98567  	49.67084  	26.05159  	-1.18512  	0.05187  	1.42300  	1.45935  	-3.02442  	0.06125  	-0.08571  	-54.55386  	-1.56075  	430.71127  	419.98139  	-17552.74784  	-11453.52844  	0.00633  	0.00003  	0.00420  	0.00500  	0.01053  	0.00000  	0.00000  
51.85431  	21.74060  	49.98426  	49.66971  	26.05699  	-1.18512  	0.05117  	1.42362  	1.46019  	-3.02442  	0.06113  	-0.08563  	-54.58631  	-1.55939  	430.95897  	420.16680  	-17554.45345  	-11453.29096  	0.00634  	0.00003  	0.00420  	0.00498  	0.01053  	0.00000  	0.00000  
52.85562  	21.74462  	49.98257  	49.66868  	26.06220  	-1.18512  	0.05085  	1.42218  	1.46186  	-3.02442  	0.06327  	-0.08571  	-54.60142  	-1.55612  	431.45083  	419.73928  	-17556.37103  	-11453.03780  	0.00634  	0.00003  	0.00420  	0.00498  	0.01053  	0.00000  	0.00000  
53.85892  	21.74872  	49.98105  	49.66803  	26.06674  	-1.18512  	0.05045  	1.42294  	1.46090  	-3.02442  	0.06166  	-0.08575  	-54.60705  	-1.55182  	431.16895  	419.96504  	-17558.16576  	-11452.83438  	0.00634  	0.00002  	0.00420  	0.00497  	0.01053  	0.00000  	0.00000  
54.86127  	21.75335  	49.97948  	49.66615  	26.07081  	-1.18512  	0.05020  	1.42291  	1.45834  	-3.02442  	0.06331  	-0.08564  	-54.59985  	-1.55334  	430.41290  	419.95652  	-17559.97235  	-11452.51138  	0.00633  	0.00003  	0.00420  	0.00496  	0.01053  	0.00000  	0.00000  
55.86160  	21.75674  	49.97761  	49.66478  	26.07479  	-1.18512  	0.05287  	1.42157  	1.46131  	-3.02442  	0.06289  	-0.08572  	-54.60746  	-1.55090  	431.28865  	419.55971  	-17561.50157  	-11452.20963  	0.00634  	0.00003  	0.00420  	0.00502  	0.01052  	0.00000  	0.00000  
56.86391  	21.76066  	49.97699  	49.66320  	26.07951  	-1.18512  	0.05109  	1.42488  	1.46061  	-3.02442  	0.06152  	-0.08572  	-54.61748  	-1.55561  	431.08165  	420.53625  	-17563.29764  	-11452.00405  	0.00634  	0.00003  	0.00420  	0.00498  	0.01054  	0.00000  	0.00000  
57.86723  	21.76452  	49.97505  	49.66227  	26.08370  	-1.18512  	0.05193  	1.42293  	1.46232  	-3.02442  	0.06154  	-0.08571  	-54.62165  	-1.55059  	431.58821  	419.96181  	-17564.96707  	-11451.73588  	0.00634  	0.00003  	0.00420  	0.00500  	0.01053  	0.00000  	0.00000  
58.86855  	21.76744  	49.97385  	49.66158  	26.08708  	-1.18512  	0.05102  	1.42223  	1.45895  	-3.02442  	0.06257  	-0.08567  	-54.62748  	-1.54805  	430.59150  	419.75643  	-17566.27585  	-11451.55966  	0.00633  	0.00003  	0.00420  	0.00498  	0.01053  	0.00000  	0.00000  
59.87187  	21.77168  	49.97210  	49.65946  	26.09101  	-1.18512  	0.05188  	1.42200  	1.45911  	-3.02442  	0.06223  	-0.08572  	-54.62350  	-1.54990  	430.64038  	419.68800  	-17567.97358  	-11451.19780  	0.00633  	0.00003  	0.00420  	0.00500  	0.01053  	0.00000  	0.00000  
60.87319  	21.77560  	49.97171  	49.65694  	26.09542  	-1.18512  	0.05169  	1.42268  	1.46075  	-3.02442  	0.06009  	-0.08567  	-54.62985  	-1.56049  	431.12299  	419.88803  	-17569.70364  	-11450.92690  	0.00634  	0.00003  	0.00419  	0.00499  	0.01053  	0.00000  	0.00000  
61.87450  	21.77975  	49.96958  	49.65546  	26.09921  	-1.18512  	0.05149  	1.42149  	1.45658  	-3.02442  	0.06313  	-0.08568  	-54.62521  	-1.55728  	429.89266  	419.53585  	-17571.35322  	-11450.58936  	0.00633  	0.00003  	0.00420  	0.00499  	0.01052  	0.00000  	0.00000  
62.87782  	21.78295  	49.96790  	49.65446  	26.10351  	-1.18512  	0.05219  	1.42084  	1.45663  	-3.02442  	0.06346  	-0.08565  	-54.63916  	-1.55389  	429.90732  	419.34559  	-17572.91103  	-11450.33912  	0.00633  	0.00003  	0.00420  	0.00500  	0.01052  	0.00000  	0.00000  
63.88111  	21.78905  	49.96611  	49.65227  	26.10745  	-1.18512  	0.05154  	1.42214  	1.46073  	-3.02442  	0.06141  	-0.08563  	-54.61189  	-1.55586  	431.11796  	419.72887  	-17574.99715  	-11449.96691  	0.00634  	0.00003  	0.00420  	0.00499  	0.01053  	0.00000  	0.00000  
64.88147  	21.79263  	49.96461  	49.65083  	26.11251  	-1.18512  	0.05156  	1.42205  	1.45880  	-3.02442  	0.06214  	-0.08566  	-54.63051  	-1.55556  	430.55002  	419.70280  	-17576.79253  	-11449.69360  	0.00633  	0.00003  	0.00420  	0.00499  	0.01053  	0.00000  	0.00000  
65.88179  	21.79650  	49.96285  	49.64999  	26.11556  	-1.18512  	0.04992  	1.42233  	1.46048  	-3.02442  	0.06351  	-0.08567  	-54.62008  	-1.55096  	431.04404  	419.78534  	-17578.23008  	-11449.45027  	0.00634  	0.00003  	0.00420  	0.00496  	0.01053  	0.00000  	0.00000  
66.88411  	21.80008  	49.96191  	49.64850  	26.11846  	-1.18512  	0.05112  	1.42130  	1.45961  	-3.02442  	0.06171  	-0.08571  	-54.61157  	-1.55374  	430.78741  	419.47964  	-17579.57811  	-11449.22372  	0.00634  	0.00003  	0.00420  	0.00498  	0.01052  	0.00000  	0.00000  
67.88542  	21.80492  	49.96071  	49.64665  	26.12279  	-1.18512  	0.05097  	1.42159  	1.45940  	-3.02442  	0.06266  	-0.08567  	-54.60507  	-1.55694  	430.72652  	419.56685  	-17581.48182  	-11448.93901  	0.00634  	0.00003  	0.00420  	0.00498  	0.01052  	0.00000  	0.00000  
68.88573  	21.80898  	49.96065  	49.64690  	26.12605  	-1.18512  	0.05046  	1.42128  	1.45892  	-3.02442  	0.06260  	-0.08566  	-54.59499  	-1.55540  	430.58410  	419.47595  	-17583.00428  	-11448.95659  	0.00633  	0.00003  	0.00420  	0.00497  	0.01052  	0.00000  	0.00000  
69.88906  	21.81377  	49.95952  	49.64681  	26.12919  	-1.18512  	0.05147  	1.42224  	1.45527  	-3.02442  	0.06225  	-0.08572  	-54.57402  	-1.55029  	429.50749  	419.75737  	-17584.65049  	-11448.84201  	0.00633  	0.00003  	0.00420  	0.00499  	0.01053  	0.00000  	0.00000  
70.89239  	21.81823  	49.95834  	49.64599  	26.13237  	-1.18512  	0.05407  	1.42116  	1.45284  	-3.02442  	0.06289  	-0.08576  	-54.55802  	-1.54849  	428.79046  	419.43962  	-17586.23823  	-11448.65558  	0.00632  	0.00002  	0.00420  	0.00504  	0.01052  	0.00000  	0.00000  
71.89371  	21.82227  	49.95673  	49.64435  	26.13765  	-1.18512  	0.05185  	1.42092  	1.45970  	-3.02442  	0.06390  	-0.08576  	-54.57355  	-1.54862  	430.81337  	419.36986  	-17588.17428  	-11448.35264  	0.00634  	0.00002  	0.00420  	0.00500  	0.01052  	0.00000  	0.00000  
72.89700  	21.82718  	49.95493  	49.64161  	26.14193  	-1.18512  	0.05141  	1.42101  	1.45850  	-3.02442  	0.06289  	-0.08569  	-54.56560  	-1.55330  	430.45980  	419.39408  	-17590.08544  	-11447.92759  	0.00633  	0.00003  	0.00420  	0.00499  	0.01052  	0.00000  	0.00000  
73.90034  	21.83067  	49.95336  	49.64066  	26.14537  	-1.18512  	0.05107  	1.42146  	1.45841  	-3.02442  	0.06253  	-0.08576  	-54.56507  	-1.55022  	430.43361  	419.52772  	-17591.52457  	-11447.69223  	0.00633  	0.00002  	0.00420  	0.00498  	0.01052  	0.00000  	0.00000  
74.90166  	21.83571  	49.95285  	49.63848  	26.14857  	-1.18512  	0.05158  	1.42000  	1.45819  	-3.02442  	0.06419  	-0.08569  	-54.54174  	-1.55850  	430.36746  	419.09581  	-17593.23655  	-11447.44226  	0.00633  	0.00003  	0.00421  	0.00499  	0.01052  	0.00000  	0.00000  
75.90498  	21.84087  	49.95156  	49.63819  	26.15370  	-1.18512  	0.05178  	1.42206  	1.45887  	-3.02442  	0.06366  	-0.08573  	-54.54130  	-1.55349  	430.57036  	419.70443  	-17595.37552  	-11447.29425  	0.00633  	0.00003  	0.00420  	0.00499  	0.01053  	0.00000  	0.00000  
76.90829  	21.84538  	49.95037  	49.63687  	26.15741  	-1.18512  	0.05197  	1.42011  	1.45778  	-3.02442  	0.06182  	-0.08565  	-54.53133  	-1.55419  	430.24768  	419.12976  	-17597.08506  	-11447.06016  	0.00633  	0.00003  	0.00420  	0.00500  	0.01052  	0.00000  	0.00000  
77.90961  	21.85036  	49.94917  	49.63677  	26.16097  	-1.18512  	0.05161  	1.42045  	1.45814  	-3.02442  	0.06205  	-0.08569  	-54.51335  	-1.54870  	430.35446  	419.22899  	-17598.86012  	-11446.93854  	0.00633  	0.00003  	0.00420  	0.00499  	0.01052  	0.00000  	0.00000  
78.91293  	21.85504  	49.94781  	49.63504  	26.16554  	-1.18512  	0.05157  	1.41926  	1.45618  	-3.02442  	0.06414  	-0.08564  	-54.51187  	-1.55057  	429.77539  	418.87768  	-17600.78277  	-11446.64975  	0.00633  	0.00003  	0.00421  	0.00499  	0.01051  	0.00000  	0.00000  
79.91525  	21.85943  	49.94772  	49.63378  	26.16924  	-1.18512  	0.05266  	1.41991  	1.45920  	-3.02442  	0.06308  	-0.08574  	-54.50319  	-1.55638  	430.66616  	419.07071  	-17602.46310  	-11446.52385  	0.00633  	0.00003  	0.00420  	0.00501  	0.01052  	0.00000  	0.00000  
80.91654  	21.86436  	49.94612  	49.63217  	26.17342  	-1.18512  	0.05168  	1.41931  	1.45777  	-3.02442  	0.06224  	-0.08569  	-54.49367  	-1.55640  	430.24441  	418.89316  	-17604.35675  	-11446.22331  	0.00633  	0.00003  	0.00420  	0.00499  	0.01051  	0.00000  	0.00000  
81.91986  	21.86862  	49.94413  	49.63200  	26.17809  	-1.18512  	0.05104  	1.42028  	1.45471  	-3.02442  	0.06179  	-0.08571  	-54.49882  	-1.54740  	429.34097  	419.17948  	-17606.21403  	-11446.02292  	0.00633  	0.00003  	0.00420  	0.00498  	0.01052  	0.00000  	0.00000  
82.92327  	21.87352  	49.94325  	49.63069  	26.18234  	-1.18512  	0.05186  	1.41958  	1.45628  	-3.02442  	0.06320  	-0.08575  	-54.49070  	-1.54953  	429.80571  	418.97328  	-17608.11806  	-11445.81850  	0.00633  	0.00002  	0.00420  	0.00500  	0.01052  	0.00000  	0.00000  
83.92460  	21.87877  	49.94263  	49.62984  	26.18569  	-1.18512  	0.05015  	1.41967  	1.45514  	-3.02442  	0.06322  	-0.08564  	-54.46662  	-1.55066  	429.46933  	419.00029  	-17609.90620  	-11445.68134  	0.00633  	0.00003  	0.00420  	0.00496  	0.01052  	0.00000  	0.00000  
84.92694  	21.88332  	49.94168  	49.62834  	26.19141  	-1.18512  	0.05042  	1.41879  	1.45846  	-3.02442  	0.06289  	-0.08573  	-54.48144  	-1.55340  	430.44902  	418.74023  	-17612.03964  	-11445.45212  	0.00633  	0.00003  	0.00420  	0.00497  	0.01051  	0.00000  	0.00000  
85.93026  	21.88785  	49.94088  	49.62771  	26.19505  	-1.18512  	0.05121  	1.42028  	1.45557  	-3.02442  	0.06063  	-0.08570  	-54.47020  	-1.55255  	429.59587  	419.18049  	-17613.73814  	-11445.31846  	0.00633  	0.00003  	0.00419  	0.00498  	0.01052  	0.00000  	0.00000  
86.93158  	21.89267  	49.94072  	49.62737  	26.20035  	-1.18512  	0.05013  	1.41850  	1.45797  	-3.02442  	0.06279  	-0.08566  	-54.47626  	-1.55341  	430.30376  	418.65511  	-17615.84433  	-11445.27181  	0.00633  	0.00003  	0.00420  	0.00496  	0.01051  	0.00000  	0.00000  
87.93390  	21.89819  	49.93914  	49.62622  	26.20465  	-1.18512  	0.05114  	1.41826  	1.45657  	-3.02442  	0.06359  	-0.08575  	-54.46085  	-1.55129  	429.89072  	418.58312  	-17617.88515  	-11445.01713  	0.00633  	0.00002  	0.00420  	0.00498  	0.01051  	0.00000  	0.00000  
88.93722  	21.90295  	49.93738  	49.62456  	26.20880  	-1.18512  	0.05248  	1.41750  	1.45276  	-3.02442  	0.06262  	-0.08570  	-54.45317  	-1.55082  	428.76547  	418.36057  	-17619.73868  	-11444.69716  	0.00632  	0.00003  	0.00420  	0.00501  	0.01051  	0.00000  	0.00000  
89.93851  	21.90754  	49.93670  	49.62474  	26.21289  	-1.18512  	0.05005  	1.41869  	1.45454  	-3.02442  	0.06184  	-0.08570  	-54.44674  	-1.54654  	429.29162  	418.71011  	-17621.54287  	-11444.65130  	0.00633  	0.00003  	0.00420  	0.00496  	0.01051  	0.00000  	0.00000  
90.94185  	21.91308  	49.93538  	49.62342  	26.21703  	-1.18512  	0.05075  	1.41849  	1.45694  	-3.02442  	0.06288  	-0.08562  	-54.42902  	-1.54652  	430.00073  	418.65119  	-17623.55878  	-11444.40381  	0.00633  	0.00003  	0.00420  	0.00497  	0.01051  	0.00000  	0.00000  
91.94514  	21.91819  	49.93520  	49.62400  	26.22241  	-1.18512  	0.05030  	1.41822  	1.45567  	-3.02442  	0.06328  	-0.08572  	-54.43251  	-1.54278  	429.62620  	418.57224  	-17625.73979  	-11444.44135  	0.00633  	0.00003  	0.00420  	0.00497  	0.01051  	0.00000  	0.00000  
92.94649  	21.92315  	49.93462  	49.62306  	26.22536  	-1.18512  	0.05194  	1.41620  	1.45575  	-3.02442  	0.06284  	-0.08564  	-54.40702  	-1.54458  	429.64819  	417.97479  	-17627.38507  	-11444.30006  	0.00633  	0.00003  	0.00420  	0.00500  	0.01050  	0.00000  	0.00000  
93.94878  	21.92813  	49.93417  	49.62294  	26.23086  	-1.18512  	0.05169  	1.41314  	1.45323  	-3.02442  	0.06292  	-0.08571  	-54.41362  	-1.54291  	428.90350  	417.07148  	-17629.56453  	-11444.24606  	0.00633  	0.00003  	0.00420  	0.00499  	0.01049  	0.00000  	0.00000  
94.95213  	21.93323  	49.93368  	49.62197  	26.23534  	-1.18512  	0.05228  	1.41153  	1.44625  	-3.02442  	0.06242  	-0.08564  	-54.40593  	-1.54530  	426.84584  	416.59799  	-17631.55784  	-11444.10999  	0.00631  	0.00003  	0.00420  	0.00500  	0.01048  	0.00000  	0.00000  
95.95442  	21.93845  	49.93138  	49.62039  	26.24085  	-1.18512  	0.05025  	1.41149  	1.44849  	-3.02442  	0.06234  	-0.08566  	-54.40951  	-1.54175  	427.50499  	416.58520  	-17633.79090  	-11443.74837  	0.00632  	0.00003  	0.00420  	0.00496  	0.01048  	0.00000  	0.00000  
96.95576  	21.94330  	49.93195  	49.61959  	26.24606  	-1.18512  	0.05073  	1.40667  	1.44225  	-3.02442  	0.06210  	-0.08571  	-54.41406  	-1.54851  	425.66335  	415.16417  	-17635.88248  	-11443.72623  	0.00631  	0.00003  	0.00420  	0.00497  	0.01046  	0.00000  	0.00000  
97.95808  	21.94811  	49.93163  	49.61908  	26.25296  	-1.18512  	0.05128  	1.40250  	1.43802  	-3.02442  	0.06314  	-0.08569  	-54.44042  	-1.54950  	424.41565  	413.93155  	-17638.31818  	-11443.64902  	0.00630  	0.00003  	0.00420  	0.00498  	0.01044  	0.00000  	0.00000  
98.96140  	21.95298  	49.92968  	49.61920  	26.25902  	-1.18512  	0.05048  	1.40074  	1.43669  	-3.02442  	0.06264  	-0.08573  	-54.45554  	-1.53917  	424.02218  	413.41402  	-17640.59206  	-11443.47839  	0.00630  	0.00003  	0.00420  	0.00497  	0.01043  	0.00000  	0.00000  
99.96272  	21.95788  	49.92857  	49.61876  	26.26704  	-1.18512  	0.05119  	1.39888  	1.43562  	-3.02442  	0.06134  	-0.08568  	-54.49504  	-1.53589  	423.70739  	412.86243  	-17643.28241  	-11443.33335  	0.00630  	0.00003  	0.00420  	0.00498  	0.01042  	0.00000  	0.00000  
100.96505  	21.96212  	49.92738  	49.61786  	26.27396  	-1.18512  	0.05065  	1.40027  	1.43512  	-3.02442  	0.06217  	-0.08574  	-54.52883  	-1.53445  	423.55859  	413.27391  	-17645.60423  	-11443.13871  	0.00630  	0.00003  	0.00420  	0.00497  	0.01043  	0.00000  	0.00000  
101.96833  	21.96668  	49.92677  	49.61616  	26.28254  	-1.18512  	0.05153  	1.40049  	1.43791  	-3.02442  	0.06233  	-0.08567  	-54.57970  	-1.53987  	424.38394  	413.33954  	-17648.33977  	-11442.92265  	0.00630  	0.00003  	0.00420  	0.00499  	0.01043  	0.00000  	0.00000  
102.96965  	21.97265  	49.92544  	49.61536  	26.29318  	-1.18512  	0.05218  	1.40104  	1.43519  	-3.02442  	0.06275  	-0.08571  	-54.63881  	-1.53722  	423.58030  	413.50092  	-17651.79641  	-11442.72433  	0.00630  	0.00003  	0.00420  	0.00500  	0.01043  	0.00000  	0.00000  
103.97297  	21.97831  	49.92522  	49.61592  	26.30013  	-1.18512  	0.05126  	1.40051  	1.44216  	-3.02442  	0.06378  	-0.08570  	-54.65505  	-1.53335  	425.63762  	413.34579  	-17654.42019  	-11442.75573  	0.00631  	0.00003  	0.00420  	0.00498  	0.01043  	0.00000  	0.00000  
104.97631  	21.98417  	49.92398  	49.61520  	26.30847  	-1.18512  	0.05030  	1.40026  	1.43947  	-3.02442  	0.06197  	-0.08563  	-54.68640  	-1.53082  	424.84421  	413.27052  	-17657.37756  	-11442.57253  	0.00630  	0.00003  	0.00420  	0.00497  	0.01043  	0.00000  	0.00000  
105.97763  	21.98971  	49.92392  	49.61611  	26.31573  	-1.18512  	0.05210  	1.40091  	1.43653  	-3.02442  	0.06300  	-0.08571  	-54.70816  	-1.52600  	423.97715  	413.46434  	-17660.04035  	-11442.65188  	0.00630  	0.00003  	0.00420  	0.00500  	0.01043  	0.00000  	0.00000  
106.97995  	21.99714  	49.92382  	49.61343  	26.32426  	-1.18512  	0.05074  	1.40101  	1.43802  	-3.02442  	0.06216  	-0.08560  	-54.72215  	-1.53877  	424.41474  	413.49280  	-17663.36265  	-11442.39240  	0.00630  	0.00003  	0.00420  	0.00497  	0.01043  	0.00000  	0.00000  
107.98327  	22.00381  	49.92258  	49.61249  	26.33276  	-1.18512  	0.05077  	1.40212  	1.44171  	-3.02442  	0.06341  	-0.08569  	-54.74527  	-1.53727  	425.50358  	413.82108  	-17666.52296  	-11442.18883  	0.00631  	0.00003  	0.00420  	0.00497  	0.01044  	0.00000  	0.00000  
108.98456  	22.00939  	49.92212  	49.61365  	26.33897  	-1.18512  	0.05170  	1.40227  	1.43964  	-3.02442  	0.06357  	-0.08562  	-54.75315  	-1.52921  	424.89287  	413.86325  	-17668.97573  	-11442.25420  	0.00630  	0.00003  	0.00420  	0.00499  	0.01044  	0.00000  	0.00000  
109.98787  	22.01529  	49.92132  	49.61263  	26.34560  	-1.18512  	0.05309  	1.40166  	1.43919  	-3.02442  	0.06154  	-0.08576  	-54.76244  	-1.53032  	424.76084  	413.68581  	-17671.58659  	-11442.08481  	0.00630  	0.00002  	0.00420  	0.00502  	0.01043  	0.00000  	0.00000  
110.99119  	22.02198  	49.92145  	49.61111  	26.35196  	-1.18512  	0.05232  	1.40305  	1.44007  	-3.02442  	0.06250  	-0.08568  	-54.75827  	-1.53853  	425.02095  	414.09364  	-17674.30392  	-11441.95395  	0.00630  	0.00003  	0.00420  	0.00500  	0.01044  	0.00000  	0.00000  
111.99251  	22.02819  	49.92100  	49.61112  	26.35851  	-1.18512  	0.05227  	1.40325  	1.44212  	-3.02442  	0.06200  	-0.08566  	-54.76252  	-1.53627  	425.62597  	414.15257  	-17676.95935  	-11441.91324  	0.00631  	0.00003  	0.00420  	0.00500  	0.01044  	0.00000  	0.00000  
112.99583  	22.03360  	49.92063  	49.61117  	26.36344  	-1.18512  	0.05148  	1.40289  	1.44281  	-3.02442  	0.06253  	-0.08567  	-54.75658  	-1.53417  	425.83003  	414.04667  	-17679.11378  	-11441.88386  	0.00631  	0.00003  	0.00420  	0.00499  	0.01044  	0.00000  	0.00000  
113.99818  	22.04015  	49.91985  	49.60980  	26.36818  	-1.18512  	0.05209  	1.40343  	1.43797  	-3.02442  	0.06199  	-0.08572  	-54.73357  	-1.53707  	424.40035  	414.20696  	-17681.46403  	-11441.68276  	0.00630  	0.00003  	0.00420  	0.00500  	0.01044  	0.00000  	0.00000  
114.99950  	22.04703  	49.91911  	49.60986  	26.37487  	-1.18512  	0.04862  	1.40343  	1.44128  	-3.02442  	0.06143  	-0.08568  	-54.73111  	-1.53311  	425.37656  	414.20620  	-17684.29140  	-11441.61965  	0.00631  	0.00003  	0.00420  	0.00493  	0.01044  	0.00000  	0.00000  
116.00082  	22.05230  	49.91844  	49.60810  	26.38027  	-1.18512  	0.05025  	1.40344  	1.43951  	-3.02442  	0.06276  	-0.08573  	-54.73295  	-1.53851  	424.85564  	414.20967  	-17686.51381  	-11441.39264  	0.00630  	0.00003  	0.00420  	0.00496  	0.01044  	0.00000  	0.00000  
117.00114  	22.05879  	49.91754  	49.60724  	26.38467  	-1.18512  	0.05132  	1.40219  	1.44217  	-3.02442  	0.06328  	-0.08569  	-54.70635  	-1.53831  	425.64179  	413.84128  	-17688.78297  	-11441.22871  	0.00631  	0.00003  	0.00420  	0.00499  	0.01044  	0.00000  	0.00000  
118.00147  	22.06465  	49.91784  	49.60728  	26.38870  	-1.18512  	0.05113  	1.40310  	1.44009  	-3.02442  	0.06176  	-0.08570  	-54.68326  	-1.53963  	425.02736  	414.10915  	-17690.84171  	-11441.25987  	0.00630  	0.00003  	0.00420  	0.00498  	0.01044  	0.00000  	0.00000  
119.00176  	22.07061  	49.91571  	49.60614  	26.39526  	-1.18512  	0.05073  	1.40349  	1.44080  	-3.02442  	0.06216  	-0.08574  	-54.69080  	-1.53469  	425.23743  	414.22578  	-17693.45108  	-11440.95439  	0.00631  	0.00003  	0.00420  	0.00497  	0.01044  	0.00000  	0.00000  
